Folder: SpectraProcessing/Sample Spectra

File: FTIR PET.txt
674.992 1.90302 0.765496 0.399475 1.88218 0.50878 -0.0282817 -0.362289 1.84552 0.29802 0.952811 1.7601 4.2303 3.89347 3.32323 0.767742 2.25779 2.68948 3.24102 2.44364 3.22692 1.97776 3.75643 4.14452 3.35571 2.06812 4.00068 3.87551 3.90376 2.61835 3.14132 2.26757 4.11179 3.28581 3.61806 3.23602 2.25668 3.18657 4.57406 2.39856 3.9627 2.77814 5.03405 4.92858 4.73419 5.91745 5.05627 4.03493 4.10898 5.51504 3.89956 6.39114 5.0688 5.80278
827.991 1.84759 0.605886 0.949479 1.82535 0.306609 -0.251825 -0.320322 1.68103 -0.0573664 0.693055 1.49478 4.17506 3.84502 3.22796 0.230274 1.55501 2.54255 3.16311 2.33159 3.16649 1.11284 3.34619 3.89225 3.05202 1.61019 3.57426 2.78928 3.08587 2.00382 1.59397 1.03051 3.23117 1.99034 2.29651 1.63563 0.819521 1.28897 3.50679 0.644555 2.59584 1.23821 3.72226 3.69114 3.44793 4.29375 3.55675 1.84213 2.0268 3.22206 1.71073 4.24985 3.40865 4.01323
976.49 1.85194 0.563723 1.10444 1.84136 0.214543 -0.34226 -0.216288 1.64085 -0.151081 0.651725 1.48496 4.34909 3.88953 3.29043 0.171736 1.45631 2.73613 3.44952 2.4701 3.31027 1.02808 3.56462 4.01271 3.1755 1.81704 3.71289 2.85279 3.12462 2.01285 1.45311 1.07877 3.36393 1.95382 2.23997 1.50506 0.8197 1.11949 3.55676 0.550052 2.85502 1.2307 3.74662 3.84639 3.52862 4.31248 3.55663 1.67085 1.94494 3.06131 1.51924 4.18162 3.36298 4.03356
1129.49 1.74463 0.344913 1.41932 1.71398 -0.0167382 -0.59237 -0.250239 1.49519 -0.37655 0.444155 1.2776 5.1238 4.52416 3.96568 -0.0375025 1.22142 3.35009 3.83587 2.52858 3.46727 0.809742 3.89265 4.20982 3.46222 2.21277 3.91556 2.86111 3.81619 2.42565 1.20754 1.07356 3.47608 1.79248 2.04775 1.30691 0.775088 0.860217 3.87407 0.354864 3.3487 1.35821 3.89826 4.26821 3.71558 4.76945 3.55716 1.4995 1.8444 2.85149 1.38862 4.49345 3.80534 4.61057
1279.27 1.72877 0.295764 1.41024 1.628 -0.095175 -0.668941 -0.307973 1.42968 -0.4387 0.402153 1.20734 5.3861 5.03159 4.09268 -0.0657737 1.18265 3.35114 3.88658 2.46921 3.38063 0.76807 3.89267 4.2823 3.5032 2.2208 3.96409 2.81052 3.94641 2.37209 1.1499 1.02166 3.50682 1.74033 1.9953 1.25921 0.724903 0.785868 3.87839 0.285407 3.30186 1.30212 3.87907 4.31741 3.74119 4.72186 3.46095 1.38156 1.77871 2.76936 1.31464 4.43646 3.72249 4.49544
1430.98 1.5646 0.356953 1.25381 1.56953 0.0116799 -0.551379 -0.450426 1.27387 -0.310543 0.469256 1.23712 4.45616 4.16746 3.3103 0.024331 1.25842 2.88068 3.37203 2.43839 3.35569 0.852923 3.26841 4.16465 3.40195 1.60716 3.76705 2.62251 3.25649 2.13009 1.23645 0.766104 3.32509 1.8347 2.08293 1.36523 0.564064 0.902922 3.68044 0.297515 2.41236 0.955539 3.79442 3.78413 3.55258 4.0348 3.31568 1.37542 1.63975 2.80635 1.19646 3.97655 3.58368 4.26743
1580.12 1.65006 0.374659 1.23015 1.60381 0.0277172 -0.546066 -0.357856 1.38183 -0.295546 0.478382 1.28241 4.39075 4.01344 3.28319 0.030934 1.26555 2.79812 3.44645 2.42119 3.34708 0.857501 3.3998 4.06241 3.30914 1.66064 3.73669 2.72483 3.2417 1.95567 1.23273 0.90104 3.37041 1.85835 2.08388 1.36018 0.666727 0.914153 3.59906 0.343768 2.62594 1.05704 3.72557 3.7857 3.54527 4.17413 3.32335 1.4214 1.68231 2.83281 1.25425 3.99794 3.44037 4.12006
1729.26 1.88186 0.366822 1.51689 1.67047 -0.00742823 -0.580673 -0.142557 1.55154 -0.336421 0.47244 1.33572 4.75765 4.29877 3.79424 0.00144762 1.24007 3.17846 3.974 2.6183 3.35555 0.83254 4.10188 4.26808 3.49264 2.34911 4.08987 2.95035 3.64555 2.26794 1.18304 1.24358 3.68852 1.85969 2.07846 1.3132 0.917822 0.859954 3.91605 0.419993 3.39915 1.47183 3.97752 4.42314 3.84745 4.6371 3.49009 1.47611 1.95232 2.8532 1.46566 4.41246 3.50653 4.27281
1881.48 1.53421 0.378517 0.267274 1.42867 0.0147018 -0.552562 -0.622524 1.26406 -0.265607 0.434399 1.18918 3.44359 3.00819 2.48588 0.04755 1.26787 1.74694 2.41379 1.58051 2.36695 0.798921 2.63947 2.96278 2.17505 0.789473 2.78195 2.37882 2.37834 0.975164 1.22411 0.595155 2.62926 1.63763 1.86514 1.28257 0.390432 0.91705 2.6077 0.245174 1.95371 0.674187 2.89066 2.80911 2.71077 3.61209 2.6167 1.29846 1.46253 2.75711 1.17283 3.49561 2.4888 3.12832
2029.6 1.50465 0.345154 0.118695 1.39247 -0.0274091 -0.591455 -0.65763 1.22459 -0.299796 0.404031 1.1589 3.40864 2.93583 2.44637 0.0176788 1.2372 1.649 2.32876 1.45461 2.2375 0.75995 2.56053 2.75803 2.01428 0.686382 2.63409 2.33356 2.31126 0.774945 1.18724 0.578917 2.54976 1.59843 1.82341 1.23192 0.363949 0.875857 2.45786 0.2238 1.93814 0.630679 2.73731 2.68738 2.6018 3.59636 2.51415 1.26673 1.43538 2.73176 1.17905 3.49303 2.39103 3.03521
2182.34 1.46604 0.302742 0.0590875 1.351 -0.0792594 -0.636723 -0.698385 1.17398 -0.348474 0.365263 1.11164 3.43046 2.97819 2.48914 -0.0205879 1.19887 1.68829 2.31029 1.39736 2.19496 0.721253 2.52105 2.69731 1.98462 0.638793 2.58017 2.30952 2.32835 0.695498 1.14632 0.539738 2.52262 1.56814 1.78883 1.1913 0.335032 0.827476 2.39257 0.187352 1.91975 0.598588 2.67712 2.63858 2.55435 3.60179 2.47517 1.22878 1.39399 2.68229 1.12706 3.47283 2.39743 3.05723
2329.68 1.4407 0.265935 0.0426273 1.31922 -0.113792 -0.675857 -0.694321 1.15647 -0.368856 0.348065 1.09924 3.47428 3.0376 2.54935 -0.040173 1.18177 1.68561 2.31854 1.38424 2.18023 0.704164 2.51362 2.67123 1.99124 0.633177 2.56675 2.31418 2.36981 0.675995 1.12377 0.54786 2.52689 1.57196 1.7817 1.18902 0.34941 0.814883 2.37991 0.194899 1.93052 0.611869 2.65823 2.63741 2.5589 3.65054 2.47101 1.22812 1.41468 2.67958 1.14111 3.49128 2.43572 3.10274
2480.88 1.41118 0.238608 -0.0075432 1.29062 -0.148195 -0.707349 -0.743942 1.117 -0.407033 0.312679 1.05345 3.49636 3.07463 2.58053 -0.0731532 1.14129 1.67824 2.30299 1.34166 2.15016 0.668058 2.47829 2.62198 1.96336 0.588302 2.53341 2.27008 2.38902 0.604752 1.08745 0.502881 2.49545 1.53031 1.74515 1.13837 0.296175 0.763934 2.32921 0.139044 1.89732 0.55514 2.61596 2.59655 2.52013 3.63326 2.43184 1.18197 1.36309 2.63594 1.09524 3.48205 2.44761 3.11123
2633.63 1.37157 0.196115 -0.0136662 1.25337 -0.196162 -0.752925 -0.777095 1.07949 -0.452593 0.279222 1.01423 3.51637 3.08431 2.60326 -0.108508 1.10395 1.68157 2.31555 1.34422 2.16195 0.636489 2.47966 2.64472 1.98591 0.582978 2.5514 2.25124 2.40122 0.603254 1.05009 0.479617 2.50732 1.50636 1.72622 1.10707 0.271875 0.719674 2.32735 0.103835 1.89392 0.534453 2.61977 2.61001 2.52574 3.635 2.4357 1.1481 1.34034 2.60296 1.05169 3.48619 2.44613 3.12498
2781.74 1.32493 0.143396 -0.00657292 1.20768 -0.258361 -0.810703 -0.821934 1.02369 -0.511724 0.233963 0.95791 3.58902 3.19811 2.6851 -0.155568 1.05438 1.7307 2.34351 1.35104 2.18817 0.595948 2.48057 2.6829 2.03277 0.577851 2.5776 2.22602 2.47143 0.615405 1.00228 0.449692 2.52086 1.47824 1.70352 1.06848 0.239762 0.663169 2.34383 0.0526891 1.8902 0.504878 2.63736 2.63603 2.54455 3.65935 2.45175 1.10632 1.30263 2.54793 0.996647 3.49076 2.49598 3.18485
2934.49 1.28131 0.0453885 0.454103 1.19247 -0.35975 -0.912183 -0.790008 0.959372 -0.622837 0.174439 0.894079 4.10684 3.78809 3.14498 -0.244055 0.96381 2.19113 2.82338 1.79635 2.69569 0.549482 2.80846 3.26958 2.63019 0.961755 3.12188 2.31606 2.99337 1.07263 0.917634 0.498575 2.91876 1.52568 1.75325 1.03898 0.317442 0.559053 2.84334 0.00349837 2.13563 0.608572 3.08359 3.13391 2.98773 3.95651 2.77929 1.06233 1.28284 2.47428 0.937448 3.7801 2.91004 3.65388
3085.69 1.30285 0.075184 0.422062 1.20791 -0.326665 -0.877519 -0.781478 0.973423 -0.590556 0.193843 0.903192 3.97381 3.56112 2.97392 -0.2151 0.986619 2.09073 2.77759 1.76018 2.64231 0.575564 2.7638 3.23783 2.56687 0.92289 3.04145 2.31449 2.84128 1.05061 0.94727 0.503484 2.886 1.53564 1.76864 1.05952 0.29533 0.593696 2.78109 0.0210688 2.11375 0.602608 3.04901 3.08896 2.94759 3.87309 2.76632 1.09542 1.30731 2.49924 0.96614 3.70451 2.82733 3.54336
3232.91 1.21794 0.0331236 -0.0857993 1.11013 -0.379186 -0.925431 -0.923149 0.904797 -0.628183 0.137257 0.830072 3.75178 3.41646 2.86091 -0.251025 0.951075 1.76532 2.32074 1.27626 2.12339 0.50676 2.39792 2.61054 2.01869 0.497468 2.51995 2.15004 2.62668 0.528322 0.907134 0.357885 2.46787 1.39184 1.63197 0.972446 0.14811 0.550346 2.26248 -0.0524759 1.83763 0.412782 2.56245 2.58612 2.48144 3.71687 2.39691 1.00999 1.20508 2.44236 0.8926 3.58296 2.54913 3.27543
3385.91 1.17357 -0.00459587 -0.194101 1.06749 -0.429518 -0.972941 -0.980835 0.853192 -0.671543 0.100979 0.783625 3.77646 3.47247 2.92551 -0.283819 0.919695 1.72123 2.24535 1.18356 2.02883 0.468664 2.32197 2.49304 1.93062 0.406521 2.42275 2.10604 2.66191 0.406578 0.873814 0.306109 2.39555 1.34785 1.59022 0.928683 0.0923174 0.507861 2.16459 -0.0983623 1.78471 0.353584 2.4693 2.49438 2.39725 3.75046 2.32513 0.966367 1.15614 2.39929 0.849116 3.61704 2.52024 3.26551
3534.41 1.18864 4.47718e-05 -0.0309354 1.09128 -0.423168 -0.965895 -0.941718 0.867853 -0.668962 0.115077 0.796757 3.85196 3.53189 2.97572 -0.27729 0.92491 1.84222 2.40912 1.35539 2.22697 0.490724 2.45045 2.71841 2.11648 0.545211 2.61778 2.17062 2.74125 0.579263 0.882886 0.355418 2.55899 1.39633 1.64671 0.958197 0.140635 0.516099 2.34086 -0.0757025 1.88564 0.417106 2.63699 2.67687 2.56921 3.78893 2.45169 0.987743 1.19128 2.41715 0.872091 3.6476 2.60462 3.35556
3687.41 1.1776 0.00369109 -0.252803 1.06982 -0.419396 -0.960503 -0.97974 0.859027 -0.663099 0.107467 0.784237 3.68374 3.3718 2.83701 -0.271763 0.924836 1.64484 2.20036 1.131 1.97376 0.476268 2.29904 2.40694 1.83017 0.369329 2.35729 2.11307 2.57714 0.343042 0.885951 0.311505 2.36612 1.34146 1.58581 0.929434 0.0986162 0.525858 2.11173 -0.0853579 1.78559 0.355841 2.41288 2.44665 2.35582 3.70157 2.28765 0.985039 1.17122 2.41669 0.874125 3.54944 2.45791 3.19055
3835.91 1.14538 -0.028326 -0.402461 1.03674 -0.452051 -0.9875 -1.02343 0.827591 -0.69766 0.0777934 0.749617 3.6503 3.34915 2.81355 -0.295947 0.890349 1.53794 2.05994 0.974088 1.79574 0.439514 2.17389 2.18212 1.65515 0.244312 2.17755 2.06357 2.54358 0.153959 0.862005 0.270581 2.23077 1.28426 1.52432 0.880942 0.0552727 0.503355 1.94801 -0.115933 1.71717 0.302364 2.24296 2.28824 2.20867 3.66697 2.16945 0.970147 1.14097 2.38998 0.849187 3.53347 2.38591 3.12854
3984.41 1.11386 -0.0521376 -0.376192 1.01668 -0.480559 -1.01327 -1.05477 0.790464 -0.730933 0.0535887 0.717758 3.68164 3.37081 2.81845 -0.319695 0.858826 1.54876 2.08604 1.00352 1.83116 0.421462 2.18865 2.24197 1.69653 0.2533 2.21626 2.03409 2.57931 0.203352 0.837014 0.238842 2.24337 1.25707 1.52052 0.85853 0.0233456 0.467424 1.97352 -0.157305 1.71205 0.272773 2.27837 2.32071 2.22804 3.66572 2.19452 0.941597 1.10082 2.35386 0.814421 3.57152 2.40019 3.14812
3999.81 1.11308 -0.0555772 -0.37294 1.01619 -0.482124 -1.01635 -1.05692 0.788759 -0.734183 0.0512444 0.711676 3.68372 3.36882 2.82015 -0.322202 0.854166 1.55321 2.0851 1.0058 1.83238 0.419426 2.18617 2.24932 1.70098 0.257583 2.21942 2.03058 2.58545 0.206943 0.834307 0.23645 2.24113 1.25428 1.52006 0.855144 0.022127 0.465254 1.97357 -0.162461 1.71408 0.271335 2.28305 2.32377 2.2283 3.68657 2.19531 0.945488 1.09691 2.35041 0.815319 3.57241 2.40375 3.15773